Folder: dtsa2Scripts/FIB-620-spec

Note: FIB-620-spec/Readme..txt
FIB EDAX SiLi 10 sq. mm. 17.1 mm WD.msa 

6> listCalibrations(d4)
FEI FIB620 EDAX-RTEM - FWHM[Mn Kα]=129.3 eV - 2014-03-05 00:00
FWHM[Mn Kα]=130.6 eV - initial
FWHM[Mn Kα]=129.3 eV - 2014-03-05 00:00

File: FIB-EDAX-SiLi-10-sq-mm-17-pt-1-mm-WD.msa
#FORMAT      : EMSA/MAS Spectral Data File
#VERSION     : 1.0
#TITLE       : FIB EDAX SiLi 10 sq. mm. 17.1 mm WD
#DATE        : 05-MAR-2014
#TIME        : 04:50
#OWNER       : Unknown
#NPOINTS     : 4096
#NCOLUMNS    : 1
#XUNITS      : eV
#YUNITS      : counts
#DATATYPE    : Y
#XPERCHAN    : 9.968
#OFFSET      : 6.2
#BEAMKV      : 15
#SIGNALTYPE  : EDS
#ELEVANGLE   : 35
#AZIMANGLE   : 225
#LIVETIME    : 100
#PROBECUR    : 1
#TAUWIND     : 0
#TDEADLYR    : 0.00001
#TACTLYR     : 0.5
#TALWIND     : 0.004
#CHOFFSET    : 0.0
#XLABEL      : Energy (eV)
#YLABEL      : Counts
#EDSDET      : SIUTW
##SPECIMEN   : FIB EDAX SiLi 10 sq. mm. 17.1 mm WD
##DET_HASH   : 8bd54cba-bdb1-2809-7cdf-aba568fbcc57
##CALIB_HASH : b8861be6-a184-7f00-6a18-216669d0f27f
#SPECTRUM    :
0,
74,
2040,
186,
323,
208,
582,
2188,
426,
540,
556,
556,
563,
568,
540,
588,
553,
530,
988,
577,
4741,
2843,
1866,
983,
559,
382,
383,
309,
344,
328,
344,
283,
304,
305,
290,
279,
240,
232,
241,
253,
252,
216,
238,
202,
215,
196,
179,
190,
169,
174,
172,
162,
168,
159,
134,
161,
157,
884,
1522,
149,
148,
131,
104,
159,
364,
113,
113,
103,
98,
69,
97,
99,
83,
90,
95,
71,
58,
63,
72,
66,
83,
66,
71,
50,
57,
41,
51,
49,
45,
48,
44,
38,
33,
31,
39,
29,
29,
27,
28,
24,
20,
19,
7,
9,
12,
3,
3,
0,
0,
0,
0,
0,
0,
0,
0,
0,
0,
0,
0,
0,
0,
0,
0,
0,
0,
0,
0,
0,
0,
0,
0,
0,
0,
0,
0,
0,
0,
0,
0,
0,
0,
0,
0,
0,
0,
0,
0,
0,
0,
0,
0,
0,
0,
0,
0,
0,
0,
0,
0,
0,
0,
0,
0,
0,
0,
0,
0,
0,
0,
0,
0,
0,
0,
0,
0,
0,
0,
0,
0,
0,
0,
0,
0,
0,
0,
0,
0,
0,
0,
0,
0,
0,
0,
0,
0,
0,
0,
0,
0,
0,
0,
0,
0,
0,
0,
0,
0,
0,
0,
0,
0,
0,
0,
0,
0,
0,
0,
0,
0,
0,
0,
0,
0,
0,
0,
0,
0,
0,
0,
0,
0,
0,
0,
0,
0,
0,
0,
0,
0,
0,
0,
0,
0,
0,
0,
0,
0,
0,
0,
0,
0,
0,
0,
0,
0,
0,
0,
0,
0,
0,
0,
0,
0,
0,
0,
0,
0,
0,
0,
0,
0,
0,
0,
0,
0,
0,
0,
0,
0,
0,
0,
0,
0,
0,
0,
0,
0,
0,
0,
0,
0,
0,
0,
0,
#ENDOFDATA   :