Folder: dtsa2scripts/rplScripts

File: paint-BaSO4.txt
#FORMAT      : EMSA/MAS Spectral Data File
#VERSION     : 1.0
#TITLE       : paint-BaSO4
#DATE        : 19-MAY-2011
#TIME        : 05:07
#OWNER       :
#NPOINTS     : 2048.0
#NCOLUMNS    : 1.0
#XUNITS      : keV
#YUNITS      : counts
#DATATYPE    : XY
#XPERCHAN    : 0.01
#OFFSET      : -0.2
#SIGNALTYPE  : EDS
#CHOFFSET    : 20.0
#LIVETIME    : 56.4907
#REALTIME    : 109.366
#BEAMKV      : 20.0
#PROBECUR    : 0.0
#MAGCAM      : 441.0
#XTILTSTGE   : 0.0
#AZIMANGLE   : 0.0
#ELEVANGLE   : 35.0
#XPOSITION mm: 46.0662
#YPOSITION mm: 51.8563
#ZPOSITION mm: 18.7728
##OXINSTPT   : 4
##OXINSTSTROB: 48.56
##OXINSTELEMS: 6,8,16,27,38,56,82
##OXINSTLABEL: 6, 0.277, C
##OXINSTLABEL: 8, 0.525, O
##OXINSTLABEL: 16, 2.308, S
##OXINSTLABEL: 16, 2.464, S
##OXINSTLABEL: 27, 6.930, Co
##OXINSTLABEL: 27, 7.650, Co
##OXINSTLABEL: 27, 0.776, Co
##OXINSTLABEL: 27, 0.694, Co
##OXINSTLABEL: 27, 0.678, Co
##OXINSTLABEL: 38, 14.165, Sr
##OXINSTLABEL: 38, 15.836, Sr
##OXINSTLABEL: 38, 16.085, Sr
##OXINSTLABEL: 38, 1.807, Sr
##OXINSTLABEL: 38, 1.649, Sr
##OXINSTLABEL: 38, 1.582, Sr
##OXINSTLABEL: 38, 0.114, Sr
##OXINSTLABEL: 56, 4.466, Ba
##OXINSTLABEL: 56, 4.828, Ba
##OXINSTLABEL: 56, 5.157, Ba
##OXINSTLABEL: 56, 4.331, Ba
##OXINSTLABEL: 56, 5.531, Ba
##OXINSTLABEL: 56, 5.797, Ba
##OXINSTLABEL: 56, 3.954, Ba
##OXINSTLABEL: 56, 0.780, Ba
##OXINSTLABEL: 56, 0.601, Ba
##OXINSTLABEL: 82, 10.552, Pb
##OXINSTLABEL: 82, 12.614, Pb
##OXINSTLABEL: 82, 12.623, Pb
##OXINSTLABEL: 82, 11.349, Pb
##OXINSTLABEL: 82, 14.765, Pb
##OXINSTLABEL: 82, 15.101, Pb
##OXINSTLABEL: 82, 9.185, Pb
##OXINSTLABEL: 82, 2.345, Pb
##OXINSTLABEL: 82, 2.653, Pb
##OXINSTLABEL: 82, 1.823, Pb
##OXINSTLABEL: 82, 0.293, Pb
##OXINSTLABEL: 82, 0.276, Pb
#SPECTRUM    : Spectral Data Starts Here
-0.20000, 0.0
-0.13000, 0.0
-0.06000, 11.0
0.01000, 2241.0
0.08000, 250.0
0.15000, 1629.0
0.22000, 2395.0
0.29000, 6074.0
0.36000, 804.0
0.43000, 1754.0
0.50000, 27509.0
0.57000, 10593.0
0.64000, 2069.0
0.71000, 1730.0
0.78000, 3327.0
0.85000, 1464.0
0.92000, 1403.0
0.99000, 2171.0
1.06000, 1991.0
1.13000, 1527.0
1.20000, 1511.0
1.27000, 1723.0
1.34000, 1675.0
1.41000, 1806.0
1.48000, 1984.0
1.55000, 1950.0
1.62000, 1951.0
1.69000, 2060.0
1.76000, 2721.0
1.83000, 3683.0
1.90000, 2609.0
1.97000, 2152.0
2.04000, 2185.0
2.11000, 2149.0
2.18000, 2569.0
2.25000, 11355.0
2.32000, 36111.0
2.39000, 9098.0
2.46000, 5413.0
2.53000, 2714.0
2.60000, 1898.0
2.67000, 1998.0
2.74000, 1958.0
2.81000, 1884.0
2.88000, 1903.0
2.95000, 1689.0
3.02000, 1742.0
3.09000, 1803.0
3.16000, 1718.0
3.23000, 1659.0
3.30000, 1690.0
3.37000, 1693.0
3.44000, 1672.0
3.51000, 1629.0
3.58000, 1577.0
3.65000, 1604.0
3.72000, 1584.0
3.79000, 1531.0
3.86000, 1565.0
3.93000, 2305.0
4.00000, 2295.0
4.07000, 1574.0
4.14000, 1427.0
4.21000, 1464.0
4.28000, 1640.0
4.35000, 3387.0
4.42000, 17528.0
4.49000, 26164.0
4.56000, 6625.0
4.63000, 1681.0
4.70000, 1807.0
4.77000, 6930.0
4.84000, 14105.0
4.91000, 7763.0
4.98000, 3319.0
5.05000, 2063.0
5.12000, 4388.0
5.19000, 4818.0
5.26000, 1911.0
5.33000, 1116.0
5.40000, 1150.0
5.47000, 1780.0
5.54000, 2653.0
5.61000, 1548.0
5.68000, 1072.0
5.75000, 1399.0
5.82000, 1489.0
5.89000, 1050.0
5.96000, 990.0
6.03000, 872.0
6.10000, 831.0
6.17000, 814.0
6.24000, 818.0
6.31000, 855.0
6.38000, 756.0
6.45000, 770.0
6.52000, 769.0
6.59000, 765.0
6.66000, 779.0
6.73000, 835.0
6.80000, 820.0
6.87000, 783.0
6.94000, 757.0
7.01000, 730.0
7.08000, 714.0
7.15000, 763.0
7.22000, 698.0
7.29000, 730.0
7.36000, 702.0
7.43000, 711.0
7.50000, 663.0
7.57000, 645.0
7.64000, 628.0
7.71000, 657.0
7.78000, 643.0
7.85000, 639.0
7.92000, 626.0
7.99000, 625.0
8.06000, 647.0
8.13000, 582.0
8.20000, 606.0
8.27000, 585.0
8.34000, 567.0
8.41000, 524.0
8.48000, 543.0
8.55000, 583.0
8.62000, 581.0
8.69000, 532.0
8.76000, 558.0
8.83000, 553.0
8.90000, 575.0
8.97000, 548.0
9.04000, 544.0
9.11000, 545.0
9.18000, 523.0
9.25000, 524.0
9.32000, 545.0
9.39000, 497.0
9.46000, 496.0
9.53000, 482.0
9.60000, 526.0
9.67000, 476.0
9.74000, 455.0
9.81000, 430.0
9.88000, 429.0
9.95000, 438.0
10.02000, 430.0
10.09000, 419.0
10.16000, 403.0
10.23000, 379.0
10.30000, 403.0
10.37000, 426.0
10.44000, 470.0
10.51000, 596.0
10.58000, 536.0
10.65000, 408.0
10.72000, 394.0
10.79000, 351.0
10.86000, 348.0
10.93000, 362.0
11.00000, 355.0
11.07000, 321.0
11.14000, 337.0
11.21000, 294.0
11.28000, 308.0
11.35000, 314.0
11.42000, 349.0
11.49000, 297.0
11.56000, 306.0
11.63000, 310.0
11.70000, 280.0
11.77000, 292.0
11.84000, 269.0
11.91000, 264.0
11.98000, 277.0
12.05000, 269.0
12.12000, 271.0
12.19000, 251.0
12.26000, 234.0
12.33000, 254.0
12.40000, 248.0
12.47000, 273.0
12.54000, 310.0
12.61000, 321.0
12.68000, 296.0
12.75000, 242.0
12.82000, 228.0
12.89000, 203.0
12.96000, 202.0
13.03000, 199.0
13.10000, 208.0
13.17000, 199.0
13.24000, 220.0
13.31000, 184.0
13.38000, 182.0
13.45000, 179.0
13.52000, 178.0
13.59000, 168.0
13.66000, 172.0
13.73000, 177.0
13.80000, 171.0
13.87000, 142.0
13.94000, 182.0
14.01000, 166.0
14.08000, 168.0
14.15000, 160.0
14.22000, 142.0
14.29000, 167.0
14.36000, 147.0
14.43000, 138.0
14.50000, 145.0
14.57000, 132.0
14.64000, 133.0
14.71000, 131.0
14.78000, 133.0
14.85000, 123.0
14.92000, 127.0
14.99000, 114.0
15.06000, 103.0
15.13000, 118.0
15.20000, 110.0
15.27000, 103.0
15.34000, 101.0
15.41000, 92.0
15.48000, 91.0
15.55000, 98.0
15.62000, 95.0
15.69000, 87.0
15.76000, 97.0
15.83000, 83.0
15.90000, 85.0
15.97000, 82.0
16.04000, 98.0
16.11000, 74.0
16.18000, 74.0
16.25000, 69.0
16.32000, 79.0
16.39000, 67.0
16.46000, 66.0
16.53000, 61.0
16.60000, 63.0
16.67000, 59.0
16.74000, 65.0
16.81000, 69.0
16.88000, 53.0
16.95000, 53.0
17.02000, 42.0
17.09000, 55.0
17.16000, 53.0
17.23000, 52.0
17.30000, 37.0
17.37000, 48.0
17.44000, 44.0
17.51000, 45.0
17.58000, 38.0
17.65000, 39.0
17.72000, 38.0
17.79000, 33.0
17.86000, 34.0
17.93000, 29.0
18.00000, 36.0
18.07000, 31.0
18.14000, 29.0
18.21000, 25.0
18.28000, 27.0
18.35000, 20.0
18.42000, 23.0
18.49000, 20.0
18.56000, 26.0
18.63000, 21.0
18.70000, 23.0
18.77000, 15.0
18.84000, 17.0
18.91000, 11.0
18.98000, 17.0
19.05000, 17.0
19.12000, 13.0
19.19000, 17.0
19.26000, 9.0
19.33000, 11.0
19.40000, 10.0
19.47000, 12.0
19.54000, 11.0
19.61000, 10.0
19.68000, 6.0
19.75000, 13.0
19.82000, 7.0
19.89000, 4.0
19.96000, 3.0
20.03000, 1.0
20.10000, 5.0
20.17000, 3.0
20.24000, 4.0
20.27000, 3.0
#ENDOFDATA   :